File: nickel_exp_data/0.00997M.csv
"Wavelength nm.","Abs."
500.00,0.165
500.50,0.164
501.00,0.162
501.50,0.161
502.00,0.160
502.50,0.160
503.00,0.159
503.50,0.159
504.00,0.159
504.50,0.159
505.00,0.160
505.50,0.160
506.00,0.161
506.50,0.161
507.00,0.162
507.50,0.163
508.00,0.165
508.50,0.166
509.00,0.167
509.50,0.169
510.00,0.171
510.50,0.173
511.00,0.175
511.50,0.177
512.00,0.179
512.50,0.182
513.00,0.184
513.50,0.187
514.00,0.190
514.50,0.193
515.00,0.196
515.50,0.199
516.00,0.202
516.50,0.206
517.00,0.210
517.50,0.213
518.00,0.217
518.50,0.221
519.00,0.225
519.50,0.230
520.00,0.234
520.50,0.239
521.00,0.243
521.50,0.248
522.00,0.253
522.50,0.258
523.00,0.263
523.50,0.268
524.00,0.273
524.50,0.279
525.00,0.284
525.50,0.290
526.00,0.296
526.50,0.302
527.00,0.307
527.50,0.313
528.00,0.319
528.50,0.325
529.00,0.331
529.50,0.337
530.00,0.344
530.50,0.350
531.00,0.357
531.50,0.363
532.00,0.369
532.50,0.376
533.00,0.382
533.50,0.389
534.00,0.396
534.50,0.403
535.00,0.410
535.50,0.417
536.00,0.423
536.50,0.430
537.00,0.437
537.50,0.445
538.00,0.452
538.50,0.459
539.00,0.466
539.50,0.474
540.00,0.481
540.50,0.488
541.00,0.496
541.50,0.504
542.00,0.511
542.50,0.519
543.00,0.527
543.50,0.534
544.00,0.542
544.50,0.550
545.00,0.558
545.50,0.566
546.00,0.574
546.50,0.582
547.00,0.591
547.50,0.599
548.00,0.607
548.50,0.615
549.00,0.623
549.50,0.631
550.00,0.639
550.50,0.648
551.00,0.656
551.50,0.664
552.00,0.672
552.50,0.680
553.00,0.688
553.50,0.696
554.00,0.704
554.50,0.713
555.00,0.720
555.50,0.728
556.00,0.736
556.50,0.744
557.00,0.751
557.50,0.759
558.00,0.767
558.50,0.775
559.00,0.783
559.50,0.790
560.00,0.798
560.50,0.805
561.00,0.813
561.50,0.821
562.00,0.828
562.50,0.835
563.00,0.843
563.50,0.851
564.00,0.858
564.50,0.866
565.00,0.873
565.50,0.881
566.00,0.888
566.50,0.896
567.00,0.903
567.50,0.911
568.00,0.919
568.50,0.926
569.00,0.933
569.50,0.940
570.00,0.948
570.50,0.955
571.00,0.962
571.50,0.969
572.00,0.976
572.50,0.984
573.00,0.991
573.50,0.998
574.00,1.005
574.50,1.012
575.00,1.019
575.50,1.025
576.00,1.031
576.50,1.038
577.00,1.044
577.50,1.050
578.00,1.057
578.50,1.063
579.00,1.069
579.50,1.075
580.00,1.081
580.50,1.087
581.00,1.093
581.50,1.099
582.00,1.104
582.50,1.110
583.00,1.116
583.50,1.121
584.00,1.127
584.50,1.132
585.00,1.137
585.50,1.142
586.00,1.147
586.50,1.152
587.00,1.158
587.50,1.163
588.00,1.167
588.50,1.172
589.00,1.176
589.50,1.181
590.00,1.186
590.50,1.190
591.00,1.194
591.50,1.198
592.00,1.202
592.50,1.206
593.00,1.210
593.50,1.213
594.00,1.217
594.50,1.220
595.00,1.223
595.50,1.226
596.00,1.229
596.50,1.232
597.00,1.234
597.50,1.237
598.00,1.239
598.50,1.241
599.00,1.243
599.50,1.245
600.00,1.246
600.50,1.248
601.00,1.249
601.50,1.251
602.00,1.252
602.50,1.253
603.00,1.254
603.50,1.255
604.00,1.256
604.50,1.257
605.00,1.258
605.50,1.258
606.00,1.259
606.50,1.260
607.00,1.260
607.50,1.261
608.00,1.261
608.50,1.262
609.00,1.262
609.50,1.263
610.00,1.263
610.50,1.263
611.00,1.263
611.50,1.263
612.00,1.264
612.50,1.264
613.00,1.264
613.50,1.263
614.00,1.263
614.50,1.263
615.00,1.263
615.50,1.262
616.00,1.262
616.50,1.262
617.00,1.261
617.50,1.261
618.00,1.260
618.50,1.259
619.00,1.258
619.50,1.257
620.00,1.257
620.50,1.256
621.00,1.255
621.50,1.253
622.00,1.252
622.50,1.251
623.00,1.250
623.50,1.249
624.00,1.248
624.50,1.247
625.00,1.245
625.50,1.244
626.00,1.242
626.50,1.241
627.00,1.240
627.50,1.238
628.00,1.237
628.50,1.235
629.00,1.234
629.50,1.232
630.00,1.230
630.50,1.228
631.00,1.227
631.50,1.225
632.00,1.223
632.50,1.221
633.00,1.219
633.50,1.217
634.00,1.215
634.50,1.212
635.00,1.210
635.50,1.207
636.00,1.205
636.50,1.202
637.00,1.200
637.50,1.197
638.00,1.194
638.50,1.191
639.00,1.188
639.50,1.185
640.00,1.182
640.50,1.179
641.00,1.176
641.50,1.172
642.00,1.169
642.50,1.165
643.00,1.162
643.50,1.158
644.00,1.155
644.50,1.151
645.00,1.147
645.50,1.144
646.00,1.140
646.50,1.136
647.00,1.133
647.50,1.129
648.00,1.125
648.50,1.122
649.00,1.118
649.50,1.114
650.00,1.111
650.50,1.107
651.00,1.104
651.50,1.100
652.00,1.097
652.50,1.093
653.00,1.090
653.50,1.086
654.00,1.083
654.50,1.079
655.00,1.076
655.50,1.073
656.00,1.069
656.50,1.066
657.00,1.063
657.50,1.060
658.00,1.057
658.50,1.053
659.00,1.050
659.50,1.047
660.00,1.044
660.50,1.041
661.00,1.038
661.50,1.035
662.00,1.032
662.50,1.028
663.00,1.025
663.50,1.022
664.00,1.019
664.50,1.016
665.00,1.013
665.50,1.010
666.00,1.007
666.50,1.004
667.00,1.001
667.50,0.998
668.00,0.995
668.50,0.992
669.00,0.989
669.50,0.986
670.00,0.983
670.50,0.980
671.00,0.978
671.50,0.975
672.00,0.972
672.50,0.968
673.00,0.965
673.50,0.962
674.00,0.959
674.50,0.956
675.00,0.953
675.50,0.950
676.00,0.947
676.50,0.944
677.00,0.941
677.50,0.937
678.00,0.934
678.50,0.930
679.00,0.927
679.50,0.923
680.00,0.919
680.50,0.916
681.00,0.912
681.50,0.908
682.00,0.904
682.50,0.900
683.00,0.896
683.50,0.892
684.00,0.888
684.50,0.883
685.00,0.879
685.50,0.874
686.00,0.869
686.50,0.865
687.00,0.860
687.50,0.855
688.00,0.849
688.50,0.844
689.00,0.839
689.50,0.834
690.00,0.828
690.50,0.822
691.00,0.816
691.50,0.810
692.00,0.804
692.50,0.798
693.00,0.792
693.50,0.786
694.00,0.780
694.50,0.773
695.00,0.767
695.50,0.761
696.00,0.754
696.50,0.748
697.00,0.741
697.50,0.734
698.00,0.728
698.50,0.722
699.00,0.715
699.50,0.708
700.00,0.701
700.50,0.694
701.00,0.688
701.50,0.681
702.00,0.674
702.50,0.667
703.00,0.661
703.50,0.654
704.00,0.647
704.50,0.641
705.00,0.634
705.50,0.627
706.00,0.620
706.50,0.613
707.00,0.605
707.50,0.598
708.00,0.591
708.50,0.584
709.00,0.577
709.50,0.570
710.00,0.563
710.50,0.556
711.00,0.548
711.50,0.541
712.00,0.534
712.50,0.527
713.00,0.520
713.50,0.513
714.00,0.506
714.50,0.499
715.00,0.492
715.50,0.485
716.00,0.478
716.50,0.471
717.00,0.465
717.50,0.458
718.00,0.452
718.50,0.446
719.00,0.439
719.50,0.433
720.00,0.427
720.50,0.421
721.00,0.415
721.50,0.409
722.00,0.403
722.50,0.397
723.00,0.391
723.50,0.386
724.00,0.381
724.50,0.375
725.00,0.370
725.50,0.364
726.00,0.359
726.50,0.354
727.00,0.349
727.50,0.344
728.00,0.339
728.50,0.334
729.00,0.329
729.50,0.325
730.00,0.320
730.50,0.315
731.00,0.311
731.50,0.306
732.00,0.302
732.50,0.297
733.00,0.293
733.50,0.289
734.00,0.284
734.50,0.280
735.00,0.276
735.50,0.272
736.00,0.268
736.50,0.264
737.00,0.260
737.50,0.256
738.00,0.252
738.50,0.249
739.00,0.245
739.50,0.241
740.00,0.238
740.50,0.234
741.00,0.231
741.50,0.228
742.00,0.224
742.50,0.221
743.00,0.218
743.50,0.215
744.00,0.213
744.50,0.210
745.00,0.207
745.50,0.205
746.00,0.202
746.50,0.199
747.00,0.197
747.50,0.194
748.00,0.192
748.50,0.190
749.00,0.187
749.50,0.185
750.00,0.183
750.50,0.181
751.00,0.179
751.50,0.177
752.00,0.174
752.50,0.172
753.00,0.170
753.50,0.169
754.00,0.167
754.50,0.165
755.00,0.163
755.50,0.162
756.00,0.160
756.50,0.158
757.00,0.157
757.50,0.155
758.00,0.154
758.50,0.152
759.00,0.151
759.50,0.150
760.00,0.148
760.50,0.147
761.00,0.146
761.50,0.145
762.00,0.144
762.50,0.143
763.00,0.142
763.50,0.141
764.00,0.140
764.50,0.139
765.00,0.139
765.50,0.138
766.00,0.137
766.50,0.137
767.00,0.136
767.50,0.136
768.00,0.135
768.50,0.135
769.00,0.134
769.50,0.134
770.00,0.134
770.50,0.134
771.00,0.133
771.50,0.133
772.00,0.133
772.50,0.133
773.00,0.133
773.50,0.133
774.00,0.133
774.50,0.133
775.00,0.134
775.50,0.134
776.00,0.134
776.50,0.134
777.00,0.135
777.50,0.135
778.00,0.136
778.50,0.136
779.00,0.137
779.50,0.137
780.00,0.138
780.50,0.139
781.00,0.139
781.50,0.140
782.00,0.141
782.50,0.142
783.00,0.143
783.50,0.144
784.00,0.145
784.50,0.146
785.00,0.147
785.50,0.148
786.00,0.149
786.50,0.151
787.00,0.152
787.50,0.153
788.00,0.155
788.50,0.156
789.00,0.157
789.50,0.159
790.00,0.160
790.50,0.162
791.00,0.163
791.50,0.165
792.00,0.167
792.50,0.168
793.00,0.170
793.50,0.172
794.00,0.174
794.50,0.175
795.00,0.177
795.50,0.179
796.00,0.181
796.50,0.183
797.00,0.185
797.50,0.187
798.00,0.189
798.50,0.192
799.00,0.194
799.50,0.196
800.00,0.198
800.50,0.201
801.00,0.203
801.50,0.206
802.00,0.208
802.50,0.211
803.00,0.214
803.50,0.216
804.00,0.219
804.50,0.222
805.00,0.225
805.50,0.227
806.00,0.230
806.50,0.233
807.00,0.237
807.50,0.240
808.00,0.243
808.50,0.246
809.00,0.249
809.50,0.252
810.00,0.256
810.50,0.259
811.00,0.262
811.50,0.265
812.00,0.269
812.50,0.272
813.00,0.276
813.50,0.279
814.00,0.283
814.50,0.286
815.00,0.289
815.50,0.293
816.00,0.297
816.50,0.300
817.00,0.304
817.50,0.308
818.00,0.311
818.50,0.315
819.00,0.319
819.50,0.323
820.00,0.327
820.50,0.331
821.00,0.335
821.50,0.338
822.00,0.342
822.50,0.347
823.00,0.351
823.50,0.355
824.00,0.359
824.50,0.364
825.00,0.368
825.50,0.372
826.00,0.377
826.50,0.381
827.00,0.386
827.50,0.390
828.00,0.395
828.50,0.399
829.00,0.404
829.50,0.409
830.00,0.413
830.50,0.418
831.00,0.423
831.50,0.428
832.00,0.433
832.50,0.438
833.00,0.443
833.50,0.447
834.00,0.452
834.50,0.457
835.00,0.462
835.50,0.467
836.00,0.472
836.50,0.476
837.00,0.481
837.50,0.486
838.00,0.491
838.50,0.496
839.00,0.501
839.50,0.506
840.00,0.510
840.50,0.515
841.00,0.520
841.50,0.525
842.00,0.530
842.50,0.536
843.00,0.541
843.50,0.546
844.00,0.551
844.50,0.557
845.00,0.562
845.50,0.567
846.00,0.572
846.50,0.578
847.00,0.584
847.50,0.590
848.00,0.595
848.50,0.601
849.00,0.607
849.50,0.612
850.00,0.618
850.50,0.624
851.00,0.629
851.50,0.635
852.00,0.641
852.50,0.647
853.00,0.652
853.50,0.658
854.00,0.664
854.50,0.670
855.00,0.675
855.50,0.681
856.00,0.687
856.50,0.692
857.00,0.698
857.50,0.704
858.00,0.710
858.50,0.715
859.00,0.721
859.50,0.726
860.00,0.732
860.50,0.737
861.00,0.743
861.50,0.749
862.00,0.754
862.50,0.760
863.00,0.765
863.50,0.771
864.00,0.777
864.50,0.782
865.00,0.788
865.50,0.794
866.00,0.799
866.50,0.805
867.00,0.810
867.50,0.816
868.00,0.821
868.50,0.827
869.00,0.833
869.50,0.838
870.00,0.844
870.50,0.850
871.00,0.855
871.50,0.861
872.00,0.866
872.50,0.872
873.00,0.878
873.50,0.883
874.00,0.888
874.50,0.894
875.00,0.899
875.50,0.905
876.00,0.910
876.50,0.915
877.00,0.921
877.50,0.926
878.00,0.931
878.50,0.936
879.00,0.941
879.50,0.946
880.00,0.951
880.50,0.956
881.00,0.960
881.50,0.965
882.00,0.969
882.50,0.974
883.00,0.979
883.50,0.983
884.00,0.988
884.50,0.992
885.00,0.997
885.50,1.001
886.00,1.006
886.50,1.010
887.00,1.014
887.50,1.019
888.00,1.023
888.50,1.027
889.00,1.031
889.50,1.035
890.00,1.039
890.50,1.044
891.00,1.048
891.50,1.052
892.00,1.056
892.50,1.060
893.00,1.064
893.50,1.068
894.00,1.072
894.50,1.075
895.00,1.079
895.50,1.083
896.00,1.086
896.50,1.090
897.00,1.093
897.50,1.097
898.00,1.100
898.50,1.103
899.00,1.106
899.50,1.109
900.00,1.112
900.50,1.115
901.00,1.118
901.50,1.120
902.00,1.123
902.50,1.125
903.00,1.128
903.50,1.130
904.00,1.133
904.50,1.135
905.00,1.137
905.50,1.139
906.00,1.141
906.50,1.144
907.00,1.146
907.50,1.148
908.00,1.149
908.50,1.151
909.00,1.153
909.50,1.155
910.00,1.156
910.50,1.158
911.00,1.159
911.50,1.161
912.00,1.162
912.50,1.163
913.00,1.165
913.50,1.166
914.00,1.167
914.50,1.168
915.00,1.169
915.50,1.170
916.00,1.170
916.50,1.171
917.00,1.172
917.50,1.172
918.00,1.173
918.50,1.173
919.00,1.173
919.50,1.174
920.00,1.174
920.50,1.174
921.00,1.174
921.50,1.174
922.00,1.174
922.50,1.174
923.00,1.173
923.50,1.173
924.00,1.173
924.50,1.172
925.00,1.172
925.50,1.172
926.00,1.171
926.50,1.170
927.00,1.170
927.50,1.169
928.00,1.168
928.50,1.167
929.00,1.166
929.50,1.165
930.00,1.164
930.50,1.163
931.00,1.162
931.50,1.161
932.00,1.160
932.50,1.158
933.00,1.157
933.50,1.155
934.00,1.154
934.50,1.152
935.00,1.150
935.50,1.148
936.00,1.147
936.50,1.145
937.00,1.143
937.50,1.141
938.00,1.139
938.50,1.137
939.00,1.135
939.50,1.132
940.00,1.130
940.50,1.128
941.00,1.126
941.50,1.123
942.00,1.121
942.50,1.118
943.00,1.116
943.50,1.113
944.00,1.111
944.50,1.108
945.00,1.106
945.50,1.103
946.00,1.100
946.50,1.098
947.00,1.095
947.50,1.092
948.00,1.089
948.50,1.086
949.00,1.084
949.50,1.081
950.00,1.078
950.50,1.075
951.00,1.072
951.50,1.069
952.00,1.066
952.50,1.063
953.00,1.060
953.50,1.056
954.00,1.053
954.50,1.050
955.00,1.047
955.50,1.043
956.00,1.040
956.50,1.037
957.00,1.033
957.50,1.030
958.00,1.026
958.50,1.023
959.00,1.019
959.50,1.016
960.00,1.012
960.50,1.008
961.00,1.005
961.50,1.001
962.00,0.997
962.50,0.994
963.00,0.990
963.50,0.987
964.00,0.983
964.50,0.979
965.00,0.976
965.50,0.972
966.00,0.969
966.50,0.965
967.00,0.962
967.50,0.958
968.00,0.955
968.50,0.951
969.00,0.948
969.50,0.944
970.00,0.941
970.50,0.937
971.00,0.934
971.50,0.930
972.00,0.927
972.50,0.923
973.00,0.919
973.50,0.916
974.00,0.913
974.50,0.909
975.00,0.905
975.50,0.902
976.00,0.898
976.50,0.894
977.00,0.891
977.50,0.887
978.00,0.884
978.50,0.880
979.00,0.877
979.50,0.873
980.00,0.870
980.50,0.866
981.00,0.863
981.50,0.859
982.00,0.856
982.50,0.853
983.00,0.849
983.50,0.846
984.00,0.842
984.50,0.839
985.00,0.836
985.50,0.833
986.00,0.829
986.50,0.826
987.00,0.823
987.50,0.820
988.00,0.817
988.50,0.814
989.00,0.811
989.50,0.808
990.00,0.805
990.50,0.802
991.00,0.799
991.50,0.796
992.00,0.793
992.50,0.790
993.00,0.787
993.50,0.785
994.00,0.782
994.50,0.779
995.00,0.776
995.50,0.774
996.00,0.771
996.50,0.769
997.00,0.766
997.50,0.764
998.00,0.761
998.50,0.759
999.00,0.756
999.50,0.754
1000.00,0.752
1000.50,0.749
1001.00,0.747
1001.50,0.745
1002.00,0.743
1002.50,0.741
1003.00,0.739
1003.50,0.737
1004.00,0.736
1004.50,0.734
1005.00,0.732
1005.50,0.730
1006.00,0.729
1006.50,0.727
1007.00,0.726
1007.50,0.724
1008.00,0.723
1008.50,0.721
1009.00,0.720
1009.50,0.718
1010.00,0.717
1010.50,0.716
1011.00,0.714
1011.50,0.713
1012.00,0.712
1012.50,0.710
1013.00,0.709
1013.50,0.708
1014.00,0.706
1014.50,0.705
1015.00,0.704
1015.50,0.702
1016.00,0.701
1016.50,0.699
1017.00,0.698
1017.50,0.696
1018.00,0.695
1018.50,0.693
1019.00,0.692
1019.50,0.690
1020.00,0.689
1020.50,0.687
1021.00,0.686
1021.50,0.684
1022.00,0.682
1022.50,0.681
1023.00,0.679
1023.50,0.677
1024.00,0.676
1024.50,0.674
1025.00,0.672
1025.50,0.671
1026.00,0.669
1026.50,0.667
1027.00,0.666
1027.50,0.664
1028.00,0.662
1028.50,0.661
1029.00,0.659
1029.50,0.657
1030.00,0.655
1030.50,0.653
1031.00,0.651
1031.50,0.649
1032.00,0.648
1032.50,0.646
1033.00,0.644
1033.50,0.642
1034.00,0.640
1034.50,0.638
1035.00,0.635
1035.50,0.633
1036.00,0.631
1036.50,0.629
1037.00,0.626
1037.50,0.624
1038.00,0.621
1038.50,0.619
1039.00,0.617
1039.50,0.614
1040.00,0.612
1040.50,0.609
1041.00,0.606
1041.50,0.604
1042.00,0.601
1042.50,0.598
1043.00,0.596
1043.50,0.593
1044.00,0.591
1044.50,0.588
1045.00,0.585
1045.50,0.583
1046.00,0.580
1046.50,0.578
1047.00,0.576
1047.50,0.573
1048.00,0.571
1048.50,0.568
1049.00,0.566
1049.50,0.563
1050.00,0.561
1050.50,0.559
1051.00,0.556
1051.50,0.554
1052.00,0.552
1052.50,0.550
1053.00,0.548
1053.50,0.545
1054.00,0.543
1054.50,0.541
1055.00,0.539
1055.50,0.537
1056.00,0.535
1056.50,0.533
1057.00,0.531
1057.50,0.529
1058.00,0.526
1058.50,0.524
1059.00,0.522
1059.50,0.521
1060.00,0.519
1060.50,0.517
1061.00,0.515
1061.50,0.513
1062.00,0.511
1062.50,0.510
1063.00,0.508
1063.50,0.506
1064.00,0.505
1064.50,0.503
1065.00,0.502
1065.50,0.500
1066.00,0.499
1066.50,0.497
1067.00,0.496
1067.50,0.494
1068.00,0.493
1068.50,0.491
1069.00,0.490
1069.50,0.489
1070.00,0.487
1070.50,0.486
1071.00,0.485
1071.50,0.484
1072.00,0.482
1072.50,0.481
1073.00,0.480
1073.50,0.479
1074.00,0.478
1074.50,0.477
1075.00,0.476
1075.50,0.475
1076.00,0.474
1076.50,0.473
1077.00,0.472
1077.50,0.471
1078.00,0.470
1078.50,0.469
1079.00,0.468
1079.50,0.467
1080.00,0.466
1080.50,0.465
1081.00,0.465
1081.50,0.464
1082.00,0.463
1082.50,0.462
1083.00,0.462
1083.50,0.461
1084.00,0.460
1084.50,0.460
1085.00,0.459
1085.50,0.459
1086.00,0.458
1086.50,0.458
1087.00,0.458
1087.50,0.457
1088.00,0.457
1088.50,0.457
1089.00,0.456
1089.50,0.456
1090.00,0.456
1090.50,0.456
1091.00,0.455
1091.50,0.455
1092.00,0.455
1092.50,0.455
1093.00,0.455
1093.50,0.455
1094.00,0.455
1094.50,0.455
1095.00,0.455
1095.50,0.455
1096.00,0.456
1096.50,0.456
1097.00,0.456
1097.50,0.456
1098.00,0.457
1098.50,0.457
1099.00,0.457
1099.50,0.458
1100.00,0.458